Custom_Flutes_23-Nov-20_3:45:08 PM	Right_PQC2_GCD_IV	
Temperature(C)= 9999.9	Humidity(%)= 7.0	Bias(V)= -5.000E+0
Current_Limit(A) = 10.000E-6	Settling_time(s) = 0.5	
		
Voltage (V)	Current (A)
-15.000E+0	-4.672E-12
-14.900E+0	372.210E-15
-14.800E+0	1.373E-12
-14.700E+0	1.537E-12
-14.600E+0	1.561E-12
-14.500E+0	1.587E-12
-14.400E+0	1.554E-12
-14.300E+0	1.566E-12
-14.200E+0	1.583E-12
-14.100E+0	1.593E-12
-14.000E+0	1.556E-12
-13.900E+0	1.594E-12
-13.800E+0	1.610E-12
-13.700E+0	1.611E-12
-13.600E+0	1.544E-12
-13.500E+0	1.580E-12
-13.400E+0	1.612E-12
-13.300E+0	1.668E-12
-13.200E+0	1.651E-12
-13.100E+0	1.641E-12
-13.000E+0	1.640E-12
-12.900E+0	1.645E-12
-12.800E+0	1.632E-12
-12.700E+0	1.642E-12
-12.600E+0	1.652E-12
-12.500E+0	1.663E-12
-12.400E+0	1.676E-12
-12.300E+0	1.691E-12
-12.200E+0	1.687E-12
-12.100E+0	1.697E-12
-12.000E+0	1.698E-12
-11.900E+0	1.685E-12
-11.800E+0	1.676E-12
-11.700E+0	1.709E-12
-11.600E+0	1.710E-12
-11.500E+0	1.685E-12
-11.400E+0	1.757E-12
-11.300E+0	1.719E-12
-11.200E+0	1.762E-12
-11.100E+0	1.776E-12
-11.000E+0	1.780E-12
-10.900E+0	1.798E-12
-10.800E+0	1.803E-12
-10.700E+0	1.781E-12
-10.600E+0	1.803E-12
-10.500E+0	1.809E-12
-10.400E+0	1.802E-12
-10.300E+0	1.860E-12
-10.200E+0	1.876E-12
-10.100E+0	1.900E-12
-10.000E+0	1.924E-12
-9.900E+0	1.937E-12
-9.800E+0	1.926E-12
-9.700E+0	1.928E-12
-9.600E+0	1.977E-12
-9.500E+0	2.013E-12
-9.400E+0	2.011E-12
-9.300E+0	2.072E-12
-9.200E+0	2.116E-12
-9.100E+0	2.163E-12
-9.000E+0	2.184E-12
-8.900E+0	2.223E-12
-8.800E+0	2.288E-12
-8.700E+0	2.272E-12
-8.600E+0	2.332E-12
-8.500E+0	2.405E-12
-8.400E+0	2.557E-12
-8.300E+0	2.688E-12
-8.200E+0	2.823E-12
-8.100E+0	2.913E-12
-8.000E+0	3.141E-12
-7.900E+0	3.444E-12
-7.800E+0	3.840E-12
-7.700E+0	4.535E-12
-7.600E+0	5.149E-12
-7.500E+0	5.414E-12
-7.400E+0	5.526E-12
-7.300E+0	5.713E-12
-7.200E+0	5.811E-12
-7.100E+0	5.872E-12
-7.000E+0	5.918E-12
-6.900E+0	5.920E-12
-6.800E+0	5.850E-12
-6.700E+0	5.874E-12
-6.600E+0	5.890E-12
-6.500E+0	5.874E-12
-6.400E+0	5.931E-12
-6.300E+0	5.825E-12
-6.200E+0	5.813E-12
-6.100E+0	5.858E-12
-6.000E+0	5.887E-12
-5.900E+0	5.885E-12
-5.800E+0	5.885E-12
-5.700E+0	5.843E-12
-5.600E+0	5.815E-12
-5.500E+0	5.848E-12
-5.400E+0	5.857E-12
-5.300E+0	5.842E-12
-5.200E+0	5.840E-12
-5.100E+0	5.812E-12
-5.000E+0	5.791E-12
-4.900E+0	5.817E-12
-4.800E+0	5.827E-12
-4.700E+0	5.823E-12
-4.600E+0	5.774E-12
-4.500E+0	5.764E-12
-4.400E+0	5.780E-12
-4.300E+0	5.775E-12
-4.200E+0	5.752E-12
-4.100E+0	5.770E-12
-4.000E+0	5.726E-12
-3.900E+0	5.739E-12
-3.800E+0	5.706E-12
-3.700E+0	5.695E-12
-3.600E+0	5.682E-12
-3.500E+0	5.677E-12
-3.400E+0	5.663E-12
-3.300E+0	5.661E-12
-3.200E+0	5.664E-12
-3.100E+0	5.554E-12
-3.000E+0	5.582E-12
-2.900E+0	5.559E-12
-2.800E+0	5.490E-12
-2.700E+0	5.451E-12
-2.600E+0	5.429E-12
-2.500E+0	5.259E-12
-2.400E+0	5.142E-12
-2.300E+0	4.945E-12
-2.200E+0	4.543E-12
-2.100E+0	3.477E-12
-2.000E+0	2.186E-12
-1.900E+0	1.580E-12
-1.800E+0	1.186E-12
-1.700E+0	798.170E-15
-1.600E+0	542.740E-15
-1.500E+0	428.460E-15
-1.400E+0	361.700E-15
-1.300E+0	319.820E-15
-1.200E+0	317.240E-15
-1.100E+0	303.060E-15
-1.000E+0	254.520E-15
-900.000E-3	272.840E-15
-800.000E-3	240.250E-15
-700.000E-3	239.400E-15
-600.000E-3	239.800E-15
-500.000E-3	197.290E-15
-400.000E-3	211.900E-15
-300.000E-3	223.420E-15
-200.000E-3	232.650E-15
-100.000E-3	232.320E-15
0.000E+0	260.040E-15
100.000E-3	226.680E-15
200.000E-3	186.450E-15
300.000E-3	222.230E-15
400.000E-3	194.220E-15
500.000E-3	187.790E-15
600.000E-3	193.910E-15
700.000E-3	197.930E-15
800.000E-3	191.320E-15
900.000E-3	204.310E-15
1.000E+0	197.440E-15
1.100E+0	190.550E-15
1.200E+0	190.320E-15
1.300E+0	183.510E-15
1.400E+0	194.550E-15
1.500E+0	180.540E-15
1.600E+0	164.290E-15
1.700E+0	195.660E-15
1.800E+0	181.260E-15
1.900E+0	170.880E-15
2.000E+0	165.300E-15
2.100E+0	160.860E-15
2.200E+0	183.500E-15
2.300E+0	198.390E-15
2.400E+0	186.600E-15
2.500E+0	196.720E-15
2.600E+0	185.310E-15
2.700E+0	199.570E-15
2.800E+0	203.320E-15
2.900E+0	180.610E-15
3.000E+0	205.900E-15
3.100E+0	182.710E-15
3.200E+0	135.310E-15
3.300E+0	132.980E-15
3.400E+0	182.720E-15
3.500E+0	142.860E-15
3.600E+0	157.450E-15
3.700E+0	172.230E-15
3.800E+0	129.770E-15
3.900E+0	151.890E-15
4.000E+0	129.590E-15
4.100E+0	145.530E-15
4.200E+0	153.670E-15
4.300E+0	177.480E-15
4.400E+0	178.090E-15
4.500E+0	153.940E-15
4.600E+0	160.050E-15
4.700E+0	149.230E-15
4.800E+0	139.360E-15
4.900E+0	129.370E-15
5.000E+0	142.950E-15
