Extended_Flutes_13-Nov-20_3:24:32 PM	Right_PQC2_GCD_IV	
Temperature(C)= 23.5	Humidity(%)= 6.6	Bias(V)= -5.000E+0
Current_Limit(A) = 10.000E-6	Settling_time(s) = 0.5	
		
Voltage (V)	Current (A)
-15.000E+0	876.510E-15
-14.900E+0	2.249E-12
-14.800E+0	2.567E-12
-14.700E+0	2.656E-12
-14.600E+0	2.770E-12
-14.500E+0	2.705E-12
-14.400E+0	2.790E-12
-14.300E+0	2.731E-12
-14.200E+0	2.831E-12
-14.100E+0	2.827E-12
-14.000E+0	2.772E-12
-13.900E+0	2.820E-12
-13.800E+0	2.850E-12
-13.700E+0	2.808E-12
-13.600E+0	2.745E-12
-13.500E+0	2.726E-12
-13.400E+0	2.821E-12
-13.300E+0	2.825E-12
-13.200E+0	2.841E-12
-13.100E+0	2.793E-12
-13.000E+0	2.801E-12
-12.900E+0	2.789E-12
-12.800E+0	2.751E-12
-12.700E+0	2.756E-12
-12.600E+0	2.785E-12
-12.500E+0	2.695E-12
-12.400E+0	2.667E-12
-12.300E+0	2.659E-12
-12.200E+0	2.630E-12
-12.100E+0	2.637E-12
-12.000E+0	2.726E-12
-11.900E+0	2.671E-12
-11.800E+0	2.653E-12
-11.700E+0	2.634E-12
-11.600E+0	2.630E-12
-11.500E+0	2.648E-12
-11.400E+0	2.638E-12
-11.300E+0	2.628E-12
-11.200E+0	2.621E-12
-11.100E+0	2.625E-12
-11.000E+0	2.595E-12
-10.900E+0	2.758E-12
-10.800E+0	2.761E-12
-10.700E+0	2.652E-12
-10.600E+0	2.643E-12
-10.500E+0	2.625E-12
-10.400E+0	2.656E-12
-10.300E+0	2.695E-12
-10.200E+0	2.744E-12
-10.100E+0	2.763E-12
-10.000E+0	2.787E-12
-9.900E+0	2.715E-12
-9.800E+0	2.804E-12
-9.700E+0	2.854E-12
-9.600E+0	2.839E-12
-9.500E+0	2.885E-12
-9.400E+0	2.938E-12
-9.300E+0	2.930E-12
-9.200E+0	2.945E-12
-9.100E+0	3.004E-12
-9.000E+0	3.051E-12
-8.900E+0	3.110E-12
-8.800E+0	3.161E-12
-8.700E+0	3.213E-12
-8.600E+0	3.295E-12
-8.500E+0	3.376E-12
-8.400E+0	3.450E-12
-8.300E+0	3.526E-12
-8.200E+0	3.671E-12
-8.100E+0	3.852E-12
-8.000E+0	4.009E-12
-7.900E+0	4.267E-12
-7.800E+0	4.766E-12
-7.700E+0	5.469E-12
-7.600E+0	6.278E-12
-7.500E+0	6.693E-12
-7.400E+0	6.844E-12
-7.300E+0	6.975E-12
-7.200E+0	7.197E-12
-7.100E+0	7.310E-12
-7.000E+0	7.348E-12
-6.900E+0	7.338E-12
-6.800E+0	7.344E-12
-6.700E+0	7.338E-12
-6.600E+0	7.326E-12
-6.500E+0	7.284E-12
-6.400E+0	7.329E-12
-6.300E+0	7.311E-12
-6.200E+0	7.305E-12
-6.100E+0	7.212E-12
-6.000E+0	7.197E-12
-5.900E+0	7.198E-12
-5.800E+0	7.148E-12
-5.700E+0	7.140E-12
-5.600E+0	7.138E-12
-5.500E+0	7.120E-12
-5.400E+0	7.105E-12
-5.300E+0	7.095E-12
-5.200E+0	7.089E-12
-5.100E+0	7.078E-12
-5.000E+0	7.075E-12
-4.900E+0	7.047E-12
-4.800E+0	7.008E-12
-4.700E+0	7.026E-12
-4.600E+0	7.025E-12
-4.500E+0	6.988E-12
-4.400E+0	6.999E-12
-4.300E+0	6.978E-12
-4.200E+0	6.980E-12
-4.100E+0	6.956E-12
-4.000E+0	6.931E-12
-3.900E+0	6.899E-12
-3.800E+0	6.886E-12
-3.700E+0	6.873E-12
-3.600E+0	6.855E-12
-3.500E+0	6.823E-12
-3.400E+0	6.801E-12
-3.300E+0	6.804E-12
-3.200E+0	6.781E-12
-3.100E+0	6.752E-12
-3.000E+0	6.720E-12
-2.900E+0	6.685E-12
-2.800E+0	6.638E-12
-2.700E+0	6.601E-12
-2.600E+0	6.507E-12
-2.500E+0	6.412E-12
-2.400E+0	6.280E-12
-2.300E+0	6.083E-12
-2.200E+0	5.761E-12
-2.100E+0	4.873E-12
-2.000E+0	3.275E-12
-1.900E+0	2.254E-12
-1.800E+0	1.815E-12
-1.700E+0	1.403E-12
-1.600E+0	976.340E-15
-1.500E+0	791.780E-15
-1.400E+0	694.840E-15
-1.300E+0	630.940E-15
-1.200E+0	606.160E-15
-1.100E+0	600.600E-15
-1.000E+0	657.960E-15
-900.000E-3	614.840E-15
-800.000E-3	607.390E-15
-700.000E-3	621.820E-15
-600.000E-3	582.880E-15
-500.000E-3	587.850E-15
-400.000E-3	619.650E-15
-300.000E-3	612.220E-15
-200.000E-3	551.870E-15
-100.000E-3	612.550E-15
0.000E+0	636.650E-15
100.000E-3	598.040E-15
200.000E-3	558.710E-15
300.000E-3	557.820E-15
400.000E-3	557.340E-15
500.000E-3	435.590E-15
600.000E-3	491.500E-15
700.000E-3	477.940E-15
800.000E-3	461.520E-15
900.000E-3	510.100E-15
1.000E+0	515.380E-15
1.100E+0	525.340E-15
1.200E+0	529.090E-15
1.300E+0	527.030E-15
1.400E+0	516.240E-15
1.500E+0	551.710E-15
1.600E+0	537.260E-15
1.700E+0	492.880E-15
1.800E+0	494.870E-15
1.900E+0	494.270E-15
2.000E+0	526.040E-15
2.100E+0	513.930E-15
2.200E+0	445.290E-15
2.300E+0	399.470E-15
2.400E+0	443.730E-15
2.500E+0	455.350E-15
2.600E+0	462.910E-15
2.700E+0	463.840E-15
2.800E+0	461.030E-15
2.900E+0	425.760E-15
3.000E+0	464.780E-15
3.100E+0	429.760E-15
3.200E+0	359.070E-15
3.300E+0	401.680E-15
3.400E+0	491.510E-15
3.500E+0	410.210E-15
3.600E+0	449.010E-15
3.700E+0	423.270E-15
3.800E+0	432.140E-15
3.900E+0	423.960E-15
4.000E+0	420.540E-15
4.100E+0	434.880E-15
4.200E+0	419.350E-15
4.300E+0	437.180E-15
4.400E+0	448.060E-15
4.500E+0	417.510E-15
4.600E+0	441.540E-15
4.700E+0	438.260E-15
4.800E+0	421.240E-15
4.900E+0	411.350E-15
5.000E+0	418.840E-15
